Folder: EPDataLog/Orion/windows

Note: README.md
# EPDataLog

## Description

EPDataLog is a program designed to facilitate data logging from a Microgreen EnergyPak Battery.
- **Supported BMS:** Mewyeah, Heyo Daly
- **Supported Operating Systems:** Windows, MacOS

## Installation

1. On Windows, install the [CH340 Driver](https://www.wch-ic.com/downloads/CH341SER_ZIP.html) (Ctrl+Click to open in a new tab).
2. Navigate to the [release page](https://github.com/MicrogreenSolarCorp/EPDataLog/releases) (Ctrl+Click to open in a new tab).
3. **Important:** Check the BMS version of the EnergyPak (either Mewyeah or Daly). Download the corresponding zip file for the operating system and BMS version.
4. Unzip the downloaded file.

## Usage

### Windows

#### Quickstart
1. Ensure the EnergyPak is ON and connected to the computer via the RS232-USB cable. If using a 12kWh EnergyPak, ensure the display is turned OFF.
2. Open the unzipped folder and double-click on the `run.bat` file to start data logging with default settings.

![windowsRun](https://github.com/MicrogreenSolarCorp/EPDataLog/blob/main/assetsForReadme/windowsRun.png)
![windowsRunSuccess](https://github.com/MicrogreenSolarCorp/EPDataLog/blob/main/assetsForReadme/windowsRunSuccess.png)

#### Custom Configuration
To modify the read interval or specify a COM port:
1. Right-click on `run.bat` and select "Open with" → "Notepad", or open Notepad and navigate to File → Open to select `run.bat`.
2. Locate the line with the command `EPDataLogMewyeah.exe -t [Interval Time(ms)] -c [COM Port Number]`.
3. Replace `[Interval Time(ms)]` and `[COM Port Number]` with desired values.
4. Save the modifications to the `run.bat` file (Ctrl + S).
5. Double-click the updated `run.bat` file to initiate the data logging process.

### MacOS

#### Quickstart
1. Ensure the EnergyPak is ON and connected to the computer via the RS232-USB cable. If using a 12kWh EnergyPak, ensure the display is turned OFF.
2. Open the folder and double-click on the program file to start data logging with default settings.

![macosRun](https://github.com/MicrogreenSolarCorp/EPDataLog/blob/main/assetsForReadme/macosRun.png)
![macosRunSuccess](https://github.com/MicrogreenSolarCorp/EPDataLog/blob/main/assetsForReadme/macosRunSuccess.png)

### Custom Configuration Instructions

#### Parameters
- `-t [Interval Time(ms)]`: Specifies the time interval in milliseconds between two consecutive data logs. The default value is 5000 ms.
- `-c [COM Port Number]`: Specifies the COM port number for device communication. If not specified, the script will auto-detect the correct COM port.

#### Custom Configuration Example
To perform data logging every 5000 ms through COM3, modify the batch file to include:
```bash
EPDataLogMewyeahWindows.exe -t 5000 -c 3
```

## Sample Output
Refer to [SampleLog.csv](https://github.com/MicrogreenSolarCorp/EPDataLog/blob/main/SampleLog.csv) (Ctrl+Click to open in a new tab) for an example of the output CSV file.

File: EPData231113_173345.csv
Line #, Timestamp, Battery ID, Current (A), Voltage (V), State Of Charge (%), Total Capacity, Remaining Capacity (AH),Cell Voltage 1 (mV),Cell Voltage 2 (mV),Cell Voltage 3 (mV),Cell Voltage 4 (mV),Cell Voltage 5 (mV),Cell Voltage 6 (mV),Cell Voltage 7 (mV),Cell Voltage 8 (mV),Cell Voltage 9 (mV),Cell Voltage 10 (mV),Cell Voltage 11 (mV),Cell Voltage 12 (mV),Cell Voltage 13 (mV),Cell Voltage 14 (mV),Cell Voltage 15 (mV),Cell Voltage 16 (mV),Highest Cell Voltage (mV), Lowest Cell Voltage (mV),Temperature 1 (C),Temperature 2 (C),Temperature 3 (C),Temperature 4 (C),Charging (1) Discharging (2) Status, Charging MOS Status, Discharging MOS Status, Balancing Status, Cell Balancing Status,Alarm 1,Alarm 2,Alarm 3,Alarm 4,Alarm 5,Alarm 6,Alarm 7,Alarm 8,
1, 2023-11-13 17:33:45, 0, 0.00, 12.80, 50.00, 0.00, 153.60, 0.00, 0.00, 0.00, 0.00, 0.00, 0.00, 0.00, 0.00, 0.00, 0.00, 0.00, 0.00, 0.00, 0.00, 0.00, 0.00, 3202.30, 3201.10, 0.00, 0.00, 0.00, 0.00, 1, 0, 0, 0, '0000000000000000', '', '', '', '', '', '', '', '',
217, 2023-11-13 17:58:34, 0, 420.00, 12.80, 50.00, 0.00, 153.60, 0.00, 0.00, 0.00, 0.00, 0.00, 0.00, 0.00, 0.00, 0.00, 0.00, 0.00, 0.00, 0.00, 0.00, 0.00, 0.00, 3201.90, 3200.90, 0.00, 0.00, 0.00, 0.00, 1, 0, 0, 0, '0000000000000000', '', '', '', '', '', '', '', '',
433, 2023-11-13 18:23:20, 0, 420.00, 12.80, 50.00, 0.00, 153.60, 0.00, 0.00, 0.00, 0.00, 0.00, 0.00, 0.00, 0.00, 0.00, 0.00, 0.00, 0.00, 0.00, 0.00, 0.00, 0.00, 3201.70, 3200.50, 0.00, 0.00, 0.00, 0.00, 1, 0, 0, 0, '0000000000000000', '', '', '', '', '', '', '', '',
649, 2023-11-13 18:48:07, 0, 420.00, 12.80, 50.00, 0.00, 153.60, 0.00, 0.00, 0.00, 0.00, 0.00, 0.00, 0.00, 0.00, 0.00, 0.00, 0.00, 0.00, 0.00, 0.00, 0.00, 0.00, 3201.40, 3200.50, 0.00, 0.00, 0.00, 0.00, 1, 0, 0, 0, '0000000000000000', '', '', '', '', '', '', '', '',
865, 2023-11-13 19:12:53, 0, 420.00, 12.80, 50.00, 0.00, 153.60, 0.00, 0.00, 0.00, 0.00, 0.00, 0.00, 0.00, 0.00, 0.00, 0.00, 0.00, 0.00, 0.00, 0.00, 0.00, 0.00, 3201.00, 3200.20, 0.00, 0.00, 0.00, 0.00, 1, 0, 0, 0, '0000000000000000', '', '', '', '', '', '', '', '',
1081, 2023-11-13 19:37:39, 0, 420.00, 12.80, 50.00, 0.00, 153.60, 0.00, 0.00, 0.00, 0.00, 0.00, 0.00, 0.00, 0.00, 0.00, 0.00, 0.00, 0.00, 0.00, 0.00, 0.00, 0.00, 3200.90, 3199.90, 0.00, 0.00, 0.00, 0.00, 1, 0, 0, 0, '0000000000000000', '', '', '', '', '', '', '', '',
1297, 2023-11-13 20:02:25, 0, 420.00, 12.80, 50.00, 0.00, 153.60, 0.00, 0.00, 0.00, 0.00, 0.00, 0.00, 0.00, 0.00, 0.00, 0.00, 0.00, 0.00, 0.00, 0.00, 0.00, 0.00, 3200.70, 3199.60, 0.00, 0.00, 0.00, 0.00, 1, 0, 0, 0, '0000000000000000', '', '', '', '', '', '', '', '',
1513, 2023-11-13 20:27:11, 0, 420.00, 12.70, 50.00, 0.00, 152.40, 0.00, 0.00, 0.00, 0.00, 0.00, 0.00, 0.00, 0.00, 0.00, 0.00, 0.00, 0.00, 0.00, 0.00, 0.00, 0.00, 3200.30, 3199.30, 0.00, 0.00, 0.00, 0.00, 1, 0, 0, 0, '0000000000000000', '', '', '', '', '', '', '', '',
1729, 2023-11-13 20:51:57, 0, 420.00, 12.70, 50.00, 0.00, 152.40, 0.00, 0.00, 0.00, 0.00, 0.00, 0.00, 0.00, 0.00, 0.00, 0.00, 0.00, 0.00, 0.00, 0.00, 0.00, 0.00, 3200.20, 3199.20, 0.00, 0.00, 0.00, 0.00, 1, 0, 0, 0, '0000000000000000', '', '', '', '', '', '', '', '',
1945, 2023-11-13 21:16:43, 0, 420.00, 12.70, 50.00, 0.00, 152.40, 0.00, 0.00, 0.00, 0.00, 0.00, 0.00, 0.00, 0.00, 0.00, 0.00, 0.00, 0.00, 0.00, 0.00, 0.00, 0.00, 3199.90, 3198.90, 0.00, 0.00, 0.00, 0.00, 1, 0, 0, 0, '0000000000000000', '', '', '', '', '', '', '', '',
2161, 2023-11-13 21:41:29, 0, 420.00, 12.70, 50.00, 0.00, 152.40, 0.00, 0.00, 0.00, 0.00, 0.00, 0.00, 0.00, 0.00, 0.00, 0.00, 0.00, 0.00, 0.00, 0.00, 0.00, 0.00, 3199.70, 3198.70, 0.00, 0.00, 0.00, 0.00, 1, 0, 0, 0, '0000000000000000', '', '', '', '', '', '', '', '',
2377, 2023-11-13 22:06:15, 0, 420.00, 12.70, 50.00, 0.00, 152.40, 0.00, 0.00, 0.00, 0.00, 0.00, 0.00, 0.00, 0.00, 0.00, 0.00, 0.00, 0.00, 0.00, 0.00, 0.00, 0.00, 3199.60, 3198.70, 0.00, 0.00, 0.00, 0.00, 1, 0, 0, 0, '0000000000000000', '', '', '', '', '', '', '', '',
2593, 2023-11-13 22:31:01, 0, 420.00, 12.70, 50.00, 0.00, 152.40, 0.00, 0.00, 0.00, 0.00, 0.00, 0.00, 0.00, 0.00, 0.00, 0.00, 0.00, 0.00, 0.00, 0.00, 0.00, 0.00, 3199.30, 3198.50, 0.00, 0.00, 0.00, 0.00, 1, 0, 0, 0, '0000000000000000', '', '', '', '', '', '', '', '',
2809, 2023-11-13 22:55:47, 0, 420.00, 12.70, 50.00, 0.00, 152.40, 0.00, 0.00, 0.00, 0.00, 0.00, 0.00, 0.00, 0.00, 0.00, 0.00, 0.00, 0.00, 0.00, 0.00, 0.00, 0.00, 3199.10, 3198.30, 0.00, 0.00, 0.00, 0.00, 1, 0, 0, 0, '0000000000000000', '', '', '', '', '', '', '', '',
3025, 2023-11-13 23:20:34, 0, 420.00, 12.70, 50.00, 0.00, 152.40, 0.00, 0.00, 0.00, 0.00, 0.00, 0.00, 0.00, 0.00, 0.00, 0.00, 0.00, 0.00, 0.00, 0.00, 0.00, 0.00, 3198.90, 3198.10, 0.00, 0.00, 0.00, 0.00, 1, 0, 0, 0, '0000000000000000', '', '', '', '', '', '', '', '',
3241, 2023-11-13 23:45:20, 0, 420.00, 12.70, 50.00, 0.00, 152.40, 0.00, 0.00, 0.00, 0.00, 0.00, 0.00, 0.00, 0.00, 0.00, 0.00, 0.00, 0.00, 0.00, 0.00, 0.00, 0.00, 3198.80, 3197.90, 0.00, 0.00, 0.00, 0.00, 1, 0, 0, 0, '0000000000000000', '', '', '', '', '', '', '', '',
3457, 2023-11-14 00:10:06, 0, 420.00, 12.70, 50.00, 0.00, 152.40, 0.00, 0.00, 0.00, 0.00, 0.00, 0.00, 0.00, 0.00, 0.00, 0.00, 0.00, 0.00, 0.00, 0.00, 0.00, 0.00, 3198.70, 3197.80, 0.00, 0.00, 0.00, 0.00, 1, 0, 0, 0, '0000000000000000', '', '', '', '', '', '', '', '',
3673, 2023-11-14 00:34:52, 0, 420.00, 12.70, 50.00, 0.00, 152.40, 0.00, 0.00, 0.00, 0.00, 0.00, 0.00, 0.00, 0.00, 0.00, 0.00, 0.00, 0.00, 0.00, 0.00, 0.00, 0.00, 3198.50, 3197.60, 0.00, 0.00, 0.00, 0.00, 1, 0, 0, 0, '0000000000000000', '', '', '', '', '', '', '', '',
3889, 2023-11-14 00:59:38, 0, 420.00, 12.70, 50.00, 0.00, 152.40, 0.00, 0.00, 0.00, 0.00, 0.00, 0.00, 0.00, 0.00, 0.00, 0.00, 0.00, 0.00, 0.00, 0.00, 0.00, 0.00, 3198.30, 3197.50, 0.00, 0.00, 0.00, 0.00, 1, 0, 0, 0, '0000000000000000', '', '', '', '', '', '', '', '',
4105, 2023-11-14 01:24:24, 0, 420.00, 12.70, 50.00, 0.00, 152.40, 0.00, 0.00, 0.00, 0.00, 0.00, 0.00, 0.00, 0.00, 0.00, 0.00, 0.00, 0.00, 0.00, 0.00, 0.00, 0.00, 3198.30, 3197.30, 0.00, 0.00, 0.00, 0.00, 1, 0, 0, 0, '0000000000000000', '', '', '', '', '', '', '', '',
4321, 2023-11-14 01:49:10, 0, 420.00, 12.70, 50.00, 0.00, 152.40, 0.00, 0.00, 0.00, 0.00, 0.00, 0.00, 0.00, 0.00, 0.00, 0.00, 0.00, 0.00, 0.00, 0.00, 0.00, 0.00, 3198.00, 3197.20, 0.00, 0.00, 0.00, 0.00, 1, 0, 0, 0, '0000000000000000', '', '', '', '', '', '', '', '',
4537, 2023-11-14 02:13:56, 0, 420.00, 12.70, 50.00, 0.00, 152.40, 0.00, 0.00, 0.00, 0.00, 0.00, 0.00, 0.00, 0.00, 0.00, 0.00, 0.00, 0.00, 0.00, 0.00, 0.00, 0.00, 3197.90, 3197.00, 0.00, 0.00, 0.00, 0.00, 1, 0, 0, 0, '0000000000000000', '', '', '', '', '', '', '', '',
4753, 2023-11-14 02:38:42, 0, 420.00, 12.70, 50.00, 0.00, 152.40, 0.00, 0.00, 0.00, 0.00, 0.00, 0.00, 0.00, 0.00, 0.00, 0.00, 0.00, 0.00, 0.00, 0.00, 0.00, 0.00, 3197.80, 3197.00, 0.00, 0.00, 0.00, 0.00, 1, 0, 0, 0, '0000000000000000', '', '', '', '', '', '', '', '',
4969, 2023-11-14 03:03:28, 0, 420.00, 12.70, 50.00, 0.00, 152.40, 0.00, 0.00, 0.00, 0.00, 0.00, 0.00, 0.00, 0.00, 0.00, 0.00, 0.00, 0.00, 0.00, 0.00, 0.00, 0.00, 3197.60, 3196.80, 0.00, 0.00, 0.00, 0.00, 1, 0, 0, 0, '0000000000000000', '', '', '', '', '', '', '', '',
[...]
5617, 2023-11-14 04:17:47, 0, 420.00, 12.70, 50.00, 0.00, 152.40, 0.00, 0.00, 0.00, 0.00, 0.00, 0.00, 0.00, 0.00, 0.00, 0.00, 0.00, 0.00, 0.00, 0.00, 0.00, 0.00, 3197.30, 3196.50, 0.00, 0.00, 0.00, 0.00, 1, 0, 0, 0, '0000000000000000', '', '', '', '', '', '', '', '',
5833, 2023-11-14 04:42:33, 0, 420.00, 12.70, 50.00, 0.00, 152.40, 0.00, 0.00, 0.00, 0.00, 0.00, 0.00, 0.00, 0.00, 0.00, 0.00, 0.00, 0.00, 0.00, 0.00, 0.00, 0.00, 3197.20, 3196.50, 0.00, 0.00, 0.00, 0.00, 1, 0, 0, 0, '0000000000000000', '', '', '', '', '', '', '', '',
6049, 2023-11-14 05:07:19, 0, 420.00, 12.70, 50.00, 0.00, 152.40, 0.00, 0.00, 0.00, 0.00, 0.00, 0.00, 0.00, 0.00, 0.00, 0.00, 0.00, 0.00, 0.00, 0.00, 0.00, 0.00, 3197.20, 3196.30, 0.00, 0.00, 0.00, 0.00, 1, 0, 0, 0, '0000000000000000', '', '', '', '', '', '', '', '',
6265, 2023-11-14 05:32:05, 0, 420.00, 12.70, 50.00, 0.00, 152.40, 0.00, 0.00, 0.00, 0.00, 0.00, 0.00, 0.00, 0.00, 0.00, 0.00, 0.00, 0.00, 0.00, 0.00, 0.00, 0.00, 3197.10, 3196.30, 0.00, 0.00, 0.00, 0.00, 1, 0, 0, 0, '0000000000000000', '', '', '', '', '', '', '', '',
6481, 2023-11-14 05:56:51, 0, 420.00, 12.70, 50.00, 0.00, 152.40, 0.00, 0.00, 0.00, 0.00, 0.00, 0.00, 0.00, 0.00, 0.00, 0.00, 0.00, 0.00, 0.00, 0.00, 0.00, 0.00, 3197.00, 3196.30, 0.00, 0.00, 0.00, 0.00, 1, 0, 0, 0, '0000000000000000', '', '', '', '', '', '', '', '',
6697, 2023-11-14 06:21:37, 0, 420.00, 12.70, 50.00, 0.00, 152.40, 0.00, 0.00, 0.00, 0.00, 0.00, 0.00, 0.00, 0.00, 0.00, 0.00, 0.00, 0.00, 0.00, 0.00, 0.00, 0.00, 3196.90, 3196.10, 0.00, 0.00, 0.00, 0.00, 1, 0, 0, 0, '0000000000000000', '', '', '', '', '', '', '', '',
6913, 2023-11-14 06:46:23, 0, 420.00, 12.70, 50.00, 0.00, 152.40, 0.00, 0.00, 0.00, 0.00, 0.00, 0.00, 0.00, 0.00, 0.00, 0.00, 0.00, 0.00, 0.00, 0.00, 0.00, 0.00, 3196.80, 3196.00, 0.00, 0.00, 0.00, 0.00, 1, 0, 0, 0, '0000000000000000', '', '', '', '', '', '', '', '',
7129, 2023-11-14 07:11:10, 0, 420.00, 12.70, 50.00, 0.00, 152.40, 0.00, 0.00, 0.00, 0.00, 0.00, 0.00, 0.00, 0.00, 0.00, 0.00, 0.00, 0.00, 0.00, 0.00, 0.00, 0.00, 3196.70, 3196.10, 0.00, 0.00, 0.00, 0.00, 1, 0, 0, 0, '0000000000000000', '', '', '', '', '', '', '', '',
7345, 2023-11-14 07:35:56, 0, 420.00, 12.70, 50.00, 0.00, 152.40, 0.00, 0.00, 0.00, 0.00, 0.00, 0.00, 0.00, 0.00, 0.00, 0.00, 0.00, 0.00, 0.00, 0.00, 0.00, 0.00, 3196.70, 3195.90, 0.00, 0.00, 0.00, 0.00, 1, 0, 0, 0, '0000000000000000', '', '', '', '', '', '', '', '',
7561, 2023-11-14 08:00:42, 0, 420.00, 12.70, 50.00, 0.00, 152.40, 0.00, 0.00, 0.00, 0.00, 0.00, 0.00, 0.00, 0.00, 0.00, 0.00, 0.00, 0.00, 0.00, 0.00, 0.00, 0.00, 3196.60, 3195.80, 0.00, 0.00, 0.00, 0.00, 1, 0, 0, 0, '0000000000000000', '', '', '', '', '', '', '', '',
7777, 2023-11-14 08:25:28, 0, 420.00, 12.70, 50.00, 0.00, 152.40, 0.00, 0.00, 0.00, 0.00, 0.00, 0.00, 0.00, 0.00, 0.00, 0.00, 0.00, 0.00, 0.00, 0.00, 0.00, 0.00, 3196.60, 3195.90, 0.00, 0.00, 0.00, 0.00, 1, 0, 0, 0, '0000000000000000', '', '', '', '', '', '', '', '',
7993, 2023-11-14 08:50:14, 0, 0.00, 12.70, 50.00, 0.00, 152.40, 0.00, 0.00, 0.00, 0.00, 0.00, 0.00, 0.00, 0.00, 0.00, 0.00, 0.00, 0.00, 0.00, 0.00, 0.00, 0.00, 3196.40, 3195.80, 0.00, 0.00, 0.00, 0.00, 2, 0, 0, 0, '0000000000000000', '', '', '', '', '', '', '', '',
8034, 2023-11-14 08:54:56, 0, 0.00, 12.70, 50.00, 0.00, 152.40, 0.00, 0.00, 0.00, 0.00, 0.00, 0.00, 0.00, 0.00, 0.00, 0.00, 0.00, 0.00, 0.00, 0.00, 0.00, 0.00, 3196.50, 3195.70, 0.00, 0.00, 0.00, 0.00, 2, 0, 0, 0, '0000000000000000', '', '', '', '', '', '', '', '',

File: EPData231114_085852.csv
Line #, Timestamp, Battery ID, Current (A), Voltage (V), State Of Charge (%), Total Capacity, Remaining Capacity (AH),Cell Voltage 1 (mV),Cell Voltage 2 (mV),Cell Voltage 3 (mV),Cell Voltage 4 (mV),Cell Voltage 5 (mV),Cell Voltage 6 (mV),Cell Voltage 7 (mV),Cell Voltage 8 (mV),Cell Voltage 9 (mV),Cell Voltage 10 (mV),Cell Voltage 11 (mV),Cell Voltage 12 (mV),Cell Voltage 13 (mV),Cell Voltage 14 (mV),Cell Voltage 15 (mV),Cell Voltage 16 (mV),Highest Cell Voltage (mV), Lowest Cell Voltage (mV),Temperature 1 (C),Temperature 2 (C),Temperature 3 (C),Temperature 4 (C),Charging (1) Discharging (2) Status, Charging MOS Status, Discharging MOS Status, Balancing Status, Cell Balancing Status,Alarm 1,Alarm 2,Alarm 3,Alarm 4,Alarm 5,Alarm 6,Alarm 7,Alarm 8,
1, 2023-11-14 08:58:52, 0, 0.00, 12.70, 50.00, 0.00, 152.40, 0.00, 0.00, 0.00, 0.00, 0.00, 0.00, 0.00, 0.00, 0.00, 0.00, 0.00, 0.00, 0.00, 0.00, 0.00, 0.00, 3196.40, 3195.70, 0.00, 0.00, 0.00, 0.00, 2, 0, 0, 0, '0000000000000000', '', '', '', '', '', '', '', '',
2, 2023-11-14 08:58:59, 0, 0.00, 12.70, 50.00, 0.00, 152.40, 0.00, 0.00, 0.00, 0.00, 0.00, 0.00, 0.00, 0.00, 0.00, 0.00, 0.00, 0.00, 0.00, 0.00, 0.00, 0.00, 3196.50, 3195.60, 0.00, 0.00, 0.00, 0.00, 2, 0, 0, 0, '0000000000000000', '', '', '', '', '', '', '', '',
3, 2023-11-14 08:59:06, 0, 0.00, 12.70, 50.00, 0.00, 152.40, 0.00, 0.00, 0.00, 0.00, 0.00, 0.00, 0.00, 0.00, 0.00, 0.00, 0.00, 0.00, 0.00, 0.00, 0.00, 0.00, 3196.50, 3195.70, 0.00, 0.00, 0.00, 0.00, 2, 0, 0, 0, '0000000000000000', '', '', '', '', '', '', '', '',
4, 2023-11-14 08:59:13, 0, 0.00, 12.70, 50.00, 0.00, 152.40, 0.00, 0.00, 0.00, 0.00, 0.00, 0.00, 0.00, 0.00, 0.00, 0.00, 0.00, 0.00, 0.00, 0.00, 0.00, 0.00, 3196.40, 3195.70, 0.00, 0.00, 0.00, 0.00, 2, 0, 0, 0, '0000000000000000', '', '', '', '', '', '', '', '',
5, 2023-11-14 08:59:20, 0, 0.00, 12.70, 50.00, 0.00, 152.40, 0.00, 0.00, 0.00, 0.00, 0.00, 0.00, 0.00, 0.00, 0.00, 0.00, 0.00, 0.00, 0.00, 0.00, 0.00, 0.00, 3196.50, 3195.80, 0.00, 0.00, 0.00, 0.00, 2, 0, 0, 0, '0000000000000000', '', '', '', '', '', '', '', '',
6, 2023-11-14 08:59:27, 0, 0.00, 12.70, 50.00, 0.00, 152.40, 0.00, 0.00, 0.00, 0.00, 0.00, 0.00, 0.00, 0.00, 0.00, 0.00, 0.00, 0.00, 0.00, 0.00, 0.00, 0.00, 3196.40, 3195.70, 0.00, 0.00, 0.00, 0.00, 2, 0, 0, 0, '0000000000000000', '', '', '', '', '', '', '', '',
7, 2023-11-14 08:59:34, 0, 0.00, 12.70, 50.00, 0.00, 152.40, 0.00, 0.00, 0.00, 0.00, 0.00, 0.00, 0.00, 0.00, 0.00, 0.00, 0.00, 0.00, 0.00, 0.00, 0.00, 0.00, 3196.50, 3195.60, 0.00, 0.00, 0.00, 0.00, 2, 0, 0, 0, '0000000000000000', '', '', '', '', '', '', '', '',
8, 2023-11-14 08:59:41, 0, 0.00, 12.70, 50.00, 0.00, 152.40, 0.00, 0.00, 0.00, 0.00, 0.00, 0.00, 0.00, 0.00, 0.00, 0.00, 0.00, 0.00, 0.00, 0.00, 0.00, 0.00, 3196.40, 3195.80, 0.00, 0.00, 0.00, 0.00, 2, 0, 0, 0, '0000000000000000', '', '', '', '', '', '', '', '',
9, 2023-11-14 08:59:48, 0, 0.00, 12.70, 50.00, 0.00, 152.40, 0.00, 0.00, 0.00, 0.00, 0.00, 0.00, 0.00, 0.00, 0.00, 0.00, 0.00, 0.00, 0.00, 0.00, 0.00, 0.00, 3196.50, 3195.70, 0.00, 0.00, 0.00, 0.00, 2, 0, 0, 0, '0000000000000000', '', '', '', '', '', '', '', '',
10, 2023-11-14 08:59:55, 0, 0.00, 12.70, 50.00, 0.00, 152.40, 0.00, 0.00, 0.00, 0.00, 0.00, 0.00, 0.00, 0.00, 0.00, 0.00, 0.00, 0.00, 0.00, 0.00, 0.00, 0.00, 3196.50, 3195.70, 0.00, 0.00, 0.00, 0.00, 2, 0, 0, 0, '0000000000000000', '', '', '', '', '', '', '', '',
11, 2023-11-14 09:00:02, 0, 0.00, 12.70, 50.00, 0.00, 152.40, 0.00, 0.00, 0.00, 0.00, 0.00, 0.00, 0.00, 0.00, 0.00, 0.00, 0.00, 0.00, 0.00, 0.00, 0.00, 0.00, 3196.40, 3195.70, 0.00, 0.00, 0.00, 0.00, 2, 0, 0, 0, '0000000000000000', '', '', '', '', '', '', '', '',
12, 2023-11-14 09:00:09, 0, 0.00, 12.70, 50.00, 0.00, 152.40, 0.00, 0.00, 0.00, 0.00, 0.00, 0.00, 0.00, 0.00, 0.00, 0.00, 0.00, 0.00, 0.00, 0.00, 0.00, 0.00, 3196.40, 3195.70, 0.00, 0.00, 0.00, 0.00, 2, 0, 0, 0, '0000000000000000', '', '', '', '', '', '', '', '',
13, 2023-11-14 09:00:16, 0, 0.00, 12.70, 50.00, 0.00, 152.40, 0.00, 0.00, 0.00, 0.00, 0.00, 0.00, 0.00, 0.00, 0.00, 0.00, 0.00, 0.00, 0.00, 0.00, 0.00, 0.00, 3196.40, 3195.70, 0.00, 0.00, 0.00, 0.00, 2, 0, 0, 0, '0000000000000000', '', '', '', '', '', '', '', '',
14, 2023-11-14 09:00:23, 0, 0.00, 12.70, 50.00, 0.00, 152.40, 0.00, 0.00, 0.00, 0.00, 0.00, 0.00, 0.00, 0.00, 0.00, 0.00, 0.00, 0.00, 0.00, 0.00, 0.00, 0.00, 3196.40, 3195.60, 0.00, 0.00, 0.00, 0.00, 2, 0, 0, 0, '0000000000000000', '', '', '', '', '', '', '', '',
15, 2023-11-14 09:00:30, 0, 0.00, 12.70, 50.00, 0.00, 152.40, 0.00, 0.00, 0.00, 0.00, 0.00, 0.00, 0.00, 0.00, 0.00, 0.00, 0.00, 0.00, 0.00, 0.00, 0.00, 0.00, 3196.40, 3195.60, 0.00, 0.00, 0.00, 0.00, 2, 0, 0, 0, '0000000000000000', '', '', '', '', '', '', '', '',
16, 2023-11-14 09:00:37, 0, 0.00, 12.70, 50.00, 0.00, 152.40, 0.00, 0.00, 0.00, 0.00, 0.00, 0.00, 0.00, 0.00, 0.00, 0.00, 0.00, 0.00, 0.00, 0.00, 0.00, 0.00, 3196.40, 3195.70, 0.00, 0.00, 0.00, 0.00, 2, 0, 0, 0, '0000000000000000', '', '', '', '', '', '', '', '',
17, 2023-11-14 09:00:43, 0, 0.00, 12.70, 50.00, 0.00, 152.40, 0.00, 0.00, 0.00, 0.00, 0.00, 0.00, 0.00, 0.00, 0.00, 0.00, 0.00, 0.00, 0.00, 0.00, 0.00, 0.00, 3196.40, 3195.70, 0.00, 0.00, 0.00, 0.00, 2, 0, 0, 0, '0000000000000000', '', '', '', '', '', '', '', '',
18, 2023-11-14 09:00:50, 0, 0.00, 12.70, 50.00, 0.00, 152.40, 0.00, 0.00, 0.00, 0.00, 0.00, 0.00, 0.00, 0.00, 0.00, 0.00, 0.00, 0.00, 0.00, 0.00, 0.00, 0.00, 3196.50, 3195.60, 0.00, 0.00, 0.00, 0.00, 2, 0, 0, 0, '0000000000000000', '', '', '', '', '', '', '', '',
19, 2023-11-14 09:00:57, 0, 0.00, 12.70, 50.00, 0.00, 152.40, 0.00, 0.00, 0.00, 0.00, 0.00, 0.00, 0.00, 0.00, 0.00, 0.00, 0.00, 0.00, 0.00, 0.00, 0.00, 0.00, 3196.40, 3195.70, 0.00, 0.00, 0.00, 0.00, 2, 0, 0, 0, '0000000000000000', '', '', '', '', '', '', '', '',
20, 2023-11-14 09:01:04, 0, 0.00, 12.70, 50.00, 0.00, 152.40, 0.00, 0.00, 0.00, 0.00, 0.00, 0.00, 0.00, 0.00, 0.00, 0.00, 0.00, 0.00, 0.00, 0.00, 0.00, 0.00, 3196.50, 3195.70, 0.00, 0.00, 0.00, 0.00, 2, 0, 0, 0, '0000000000000000', '', '', '', '', '', '', '', '',
21, 2023-11-14 09:01:11, 0, 0.00, 12.70, 50.00, 0.00, 152.40, 0.00, 0.00, 0.00, 0.00, 0.00, 0.00, 0.00, 0.00, 0.00, 0.00, 0.00, 0.00, 0.00, 0.00, 0.00, 0.00, 3196.50, 3195.70, 0.00, 0.00, 0.00, 0.00, 2, 0, 0, 0, '0000000000000000', '', '', '', '', '', '', '', '',

File: EPData231114_090131.csv
Line #, Timestamp, Battery ID, Current (A), Voltage (V), State Of Charge (%), Total Capacity, Remaining Capacity (AH),Cell Voltage 1 (mV),Cell Voltage 2 (mV),Cell Voltage 3 (mV),Cell Voltage 4 (mV),Cell Voltage 5 (mV),Cell Voltage 6 (mV),Cell Voltage 7 (mV),Cell Voltage 8 (mV),Cell Voltage 9 (mV),Cell Voltage 10 (mV),Cell Voltage 11 (mV),Cell Voltage 12 (mV),Cell Voltage 13 (mV),Cell Voltage 14 (mV),Cell Voltage 15 (mV),Cell Voltage 16 (mV),Highest Cell Voltage (mV), Lowest Cell Voltage (mV),Temperature 1 (C),Temperature 2 (C),Temperature 3 (C),Temperature 4 (C),Charging (1) Discharging (2) Status, Charging MOS Status, Discharging MOS Status, Balancing Status, Cell Balancing Status,Alarm 1,Alarm 2,Alarm 3,Alarm 4,Alarm 5,Alarm 6,Alarm 7,Alarm 8,
1, 2023-11-14 09:01:31, 0, 0.00, 12.70, 50.00, 0.00, 152.40, 0.00, 0.00, 0.00, 0.00, 0.00, 0.00, 0.00, 0.00, 0.00, 0.00, 0.00, 0.00, 0.00, 0.00, 0.00, 0.00, 3196.40, 3195.70, 0.00, 0.00, 0.00, 0.00, 2, 0, 0, 0, '0000000000000000', '', '', '', '', '', '', '', '',
2, 2023-11-14 09:01:38, 0, 0.00, 12.70, 50.00, 0.00, 152.40, 0.00, 0.00, 0.00, 0.00, 0.00, 0.00, 0.00, 0.00, 0.00, 0.00, 0.00, 0.00, 0.00, 0.00, 0.00, 0.00, 3196.50, 3195.70, 0.00, 0.00, 0.00, 0.00, 2, 0, 0, 0, '0000000000000000', '', '', '', '', '', '', '', '',
3, 2023-11-14 09:01:45, 0, 0.00, 12.70, 50.00, 0.00, 152.40, 0.00, 0.00, 0.00, 0.00, 0.00, 0.00, 0.00, 0.00, 0.00, 0.00, 0.00, 0.00, 0.00, 0.00, 0.00, 0.00, 3196.60, 3195.70, 0.00, 0.00, 0.00, 0.00, 2, 0, 0, 0, '0000000000000000', '', '', '', '', '', '', '', '',
4, 2023-11-14 09:01:52, 0, 0.00, 12.70, 50.00, 0.00, 152.40, 0.00, 0.00, 0.00, 0.00, 0.00, 0.00, 0.00, 0.00, 0.00, 0.00, 0.00, 0.00, 0.00, 0.00, 0.00, 0.00, 3196.50, 3195.60, 0.00, 0.00, 0.00, 0.00, 2, 0, 0, 0, '0000000000000000', '', '', '', '', '', '', '', '',
5, 2023-11-14 09:01:59, 0, 0.00, 12.70, 50.00, 0.00, 152.40, 0.00, 0.00, 0.00, 0.00, 0.00, 0.00, 0.00, 0.00, 0.00, 0.00, 0.00, 0.00, 0.00, 0.00, 0.00, 0.00, 3196.50, 3195.70, 0.00, 0.00, 0.00, 0.00, 2, 0, 0, 0, '0000000000000000', '', '', '', '', '', '', '', '',
6, 2023-11-14 09:02:06, 0, 0.00, 12.70, 50.00, 0.00, 152.40, 0.00, 0.00, 0.00, 0.00, 0.00, 0.00, 0.00, 0.00, 0.00, 0.00, 0.00, 0.00, 0.00, 0.00, 0.00, 0.00, 3196.50, 3195.60, 0.00, 0.00, 0.00, 0.00, 2, 0, 0, 0, '0000000000000000', '', '', '', '', '', '', '', '',
7, 2023-11-14 09:02:13, 0, 0.00, 12.70, 50.00, 0.00, 152.40, 0.00, 0.00, 0.00, 0.00, 0.00, 0.00, 0.00, 0.00, 0.00, 0.00, 0.00, 0.00, 0.00, 0.00, 0.00, 0.00, 3196.50, 3195.70, 0.00, 0.00, 0.00, 0.00, 2, 0, 0, 0, '0000000000000000', '', '', '', '', '', '', '', '',
8, 2023-11-14 09:02:20, 0, 0.00, 12.70, 50.00, 0.00, 152.40, 0.00, 0.00, 0.00, 0.00, 0.00, 0.00, 0.00, 0.00, 0.00, 0.00, 0.00, 0.00, 0.00, 0.00, 0.00, 0.00, 3196.50, 3195.80, 0.00, 0.00, 0.00, 0.00, 2, 0, 0, 0, '0000000000000000', '', '', '', '', '', '', '', '',
9, 2023-11-14 09:02:26, 0, 0.00, 12.70, 50.00, 0.00, 152.40, 0.00, 0.00, 0.00, 0.00, 0.00, 0.00, 0.00, 0.00, 0.00, 0.00, 0.00, 0.00, 0.00, 0.00, 0.00, 0.00, 3196.30, 3195.70, 0.00, 0.00, 0.00, 0.00, 2, 0, 0, 0, '0000000000000000', '', '', '', '', '', '', '', '',