Folder: EPDataLog

Note: compilationInstructions.txt
To compile for Mewyeah Windows:

cd /Mewyeah/windows
gcc -std=c99 -o EPDataLogMewyeahWindows ../../common/windows/connection.c ../../common/windows/outputToCsv.c ../common/getData.c main.c


To compile for Daly Windows:

cd /Daly/windows
gcc -std=c99 -o EPDataLogDalyWindows ../../common/windows/connection.c ../../common/windows/outputToCsv.c ../common/getData.c main.c

Note: Developer_README.md
# Developer Readme

## Introduction
EPDataLog is a program designed to facilitate data logging from a Microgreen EnergyPak Battery. At the time of developement, the program supports the following BMS and operating system combinations:
- **Supported BMS:** Mewyeah, Heyo Daly (Also referred to as Daly)
- **Supported Operating Systems:** Windows, MacOS

Notes: 
- it does not support Orion BMS or Linux
- Mewyeah is now a deprecated version of BMS. We have a Mewyeah version to facilaite data logging for older EnergyPaks. All EnergyPaks in the future will be using Heyo Daly BMS.


## File Structure
This is the general file structure of the project:
```
EPDataLog
├── common
│   ├── macos
│   └── windows
│   │   ├── EPDataLogMewyeahWindows.exe
├── Daly
│   ├── common
│   ├── macos
│   └── windows
└── Mewyeah
    ├── common
    ├── macos
    └── windows
```

In the project root (EPDataLog), we have three directories, Daly, Mewyeah, and common. Daly and Mewyeah contain code specific to the respective BMS. Common contains code that is shared between the two BMS versions.

In EPDataLog/common/, we have two directories, macos and windows. These directories contain code that is shared between the two BMS versions. Specifically, each OS directory contains code for:
- connecting to the BMS (MacOS uses serial port communication, Windows uses COM Port communication)
- outputting data to a CSV file (MacOS requires extra configuration to get the correct file path)

In EPDataLog/common/Daly and EPDataLog/common/Mewyeah, we have three directories, common, macos, windows.

### Common
/common contains code that is shared between the two OS versions. Specifically, the common directory contains the code for getting and parsing data from the BMS. The code is the same for both BMS versions, with the exception of reading and writing data to the BMS, in which we use preprocessor conditional directives to include the correct code for each OS version.

### MacOS and Windows
/macos and /windows contains code specific to MacOS and Windows respectively. Specifically, each directory contains the main.c file where the program starts.


## Useful Resources
For instructions on compiling and releasing the code, refer to [Project_Build_And_Release_Instructions.md](https://github.com/MicrogreenSolarCorp/EPDataLog/blob/main/Project_Build_And_Release_Instructions.md)

If changes need to be made to the BMS communication code, refer to the company's internal documentation regarding each BMS.

Refer to [SampleLog.csv](https://github.com/MicrogreenSolarCorp/EPDataLog/blob/main/SampleLog.csv) for an example of the output CSV file.

Refer to Alarm Codes for a list of alarm codes and their meanings.
[Mewyeah Alarm Codes](https://github.com/MicrogreenSolarCorp/EPDataLog/blob/main/Mewyeah/Alarm%20Bit%20Codes.docx)

[Daly Alarm Codes](INSERT LINK HERE)

Note: Project_Build_And_Release_Instructions.md
# Project Build and Release Instructions

## Compilation Instructions

### For Mewyeah Windows:
```bash
cd ./Mewyeah/windows
gcc -std=c99 -o EPDataLogMewyeahWindows-v1.1 ../../common/readProgramParams.c ../../common/windows/connection.c ../../common/windows/outputToCsv.c ../common/getData.c main.c
```

### For Mewyeah MacOS:
```bash
cd ./Mewyeah/macos
gcc -std=c99 -o EPDataLogMewyeahMacOS-v1.1 ../../common/readProgramParams.c ../../common/macos/connection.c ../../common/macos/outputToCsv.c ../common/getData.c main.c
```

### For Daly Windows:
```bash
cd ./Daly/windows
gcc -std=c99 -o EPDataLogDalyWindows-v1.1 ../../common/readProgramParams.c ../../common/windows/connection.c ../../common/windows/outputToCsv.c ../common/getData.c main.c
```

### For Daly MacOS:
```bash
cd ./Daly/macos
gcc -std=c99 -o EPDataLogDalyMacOS-v1.1 ../../common/readProgramParams.c ../../common/macos/connection.c ../../common/macos/outputToCsv.c ../common/getData.c main.c
```

## Version Tagging and Pushing
```
git tag -a EPDataLog-vX.X -m "Released vX.X for all 4 program variants"
 push origin EPDataLog-vX.X
```

Note: README.md
# EPDataLog

## Description

EPDataLog is a program designed to facilitate data logging from a Microgreen EnergyPak Battery.
- **Supported BMS:** Mewyeah, Heyo Daly
- **Supported Operating Systems:** Windows, MacOS

## Installation

1. On Windows, install the [CH340 Driver](https://www.wch-ic.com/downloads/CH341SER_ZIP.html) (Ctrl+Click to open in a new tab).
2. Navigate to the [release page](https://github.com/MicrogreenSolarCorp/EPDataLog/releases) (Ctrl+Click to open in a new tab).
3. **Important:** Check the BMS version of the EnergyPak (either Mewyeah or Daly). Download the corresponding zip file for the operating system and BMS version.
4. Unzip the downloaded file.

## Usage

### Windows

#### Quickstart
1. Ensure the EnergyPak is ON and connected to the computer via the RS232-USB cable. If using a 12kWh EnergyPak, ensure the display is turned OFF.
2. Open the unzipped folder and double-click on the `run.bat` file to start data logging with default settings.

![windowsRun](https://github.com/MicrogreenSolarCorp/EPDataLog/blob/main/assetsForReadme/windowsRun.png)
![windowsRunSuccess](https://github.com/MicrogreenSolarCorp/EPDataLog/blob/main/assetsForReadme/windowsRunSuccess.png)

#### Custom Configuration
To modify the read interval or specify a COM port:
1. Right-click on `run.bat` and select "Open with" → "Notepad", or open Notepad and navigate to File → Open to select `run.bat`.
2. Locate the line with the command `EPDataLogMewyeah.exe -t [Interval Time(ms)] -c [COM Port Number]`.
3. Replace `[Interval Time(ms)]` and `[COM Port Number]` with desired values.
4. Save the modifications to the `run.bat` file (Ctrl + S).
5. Double-click the updated `run.bat` file to initiate the data logging process.

### MacOS

#### Quickstart
1. Ensure the EnergyPak is ON and connected to the computer via the RS232-USB cable. If using a 12kWh EnergyPak, ensure the display is turned OFF.
2. Open the folder and double-click on the program file to start data logging with default settings.

![macosRun](https://github.com/MicrogreenSolarCorp/EPDataLog/blob/main/assetsForReadme/macosRun.png)
![macosRunSuccess](https://github.com/MicrogreenSolarCorp/EPDataLog/blob/main/assetsForReadme/macosRunSuccess.png)

### Custom Configuration Instructions

#### Parameters
- `-t [Interval Time(ms)]`: Specifies the time interval in milliseconds between two consecutive data logs. The default value is 5000 ms.
- `-c [COM Port Number]`: Specifies the COM port number for device communication. If not specified, the script will auto-detect the correct COM port.

#### Custom Configuration Example
To perform data logging every 5000 ms through COM3, modify the batch file to include:
```bash
EPDataLogMewyeahWindows.exe -t 5000 -c 3
```

## Sample Output
Refer to [SampleLog.csv](https://github.com/MicrogreenSolarCorp/EPDataLog/blob/main/SampleLog.csv) (Ctrl+Click to open in a new tab) for an example of the output CSV file.

File: SampleLog.csv
Line #, Timestamp, Battery ID, Current (A), Voltage (V), State Of Charge (%), Total Capacity, Remaining Capacity (AH),Cell Voltage 1 (mV),Cell Voltage 2 (mV),Cell Voltage 3 (mV),Cell Voltage 4 (mV),Cell Voltage 5 (mV),Cell Voltage 6 (mV),Cell Voltage 7 (mV),Cell Voltage 8 (mV),Cell Voltage 9 (mV),Cell Voltage 10 (mV),Cell Voltage 11 (mV),Cell Voltage 12 (mV),Cell Voltage 13 (mV),Cell Voltage 14 (mV),Cell Voltage 15 (mV),Cell Voltage 16 (mV),Highest Cell Voltage (mV), Lowest Cell Voltage (mV),Temperature 1 (C),Temperature 2 (C),Temperature 3 (C),Temperature 4 (C),Charging (1) Discharging (2) Status, Charging MOS Status, Discharging MOS Status, Balancing Status, Cell Balancing Status,Alarm 1,Alarm 2,Alarm 3,Alarm 4,Alarm 5,Alarm 6,Alarm 7,Alarm 8,
1, 2023-10-30 13:36:36, 0, 146.10, 53.90, 49.40, 0.00, 138.00, 3363.00, 3367.00, 3370.00, 3374.00, 3376.00, 3367.00, 3371.00, 3367.00, 3386.00, 0.00, 0.00, 0.00, 0.00, 0.00, 0.00, 0.00, 3386.00, 3363.00, 0.00, 0.00, 0.00, 0.00, 1, 1, 1, 1, '0000000010000000', '00000000', '00000000', '00000000', '00000000', '00000000', '00000000', '00000000', '00000000',
3, 2023-10-30 13:36:44, 0, 146.10, 53.90, 49.50, 0.00, 138.00, 3368.00, 3367.00, 3368.00, 3374.00, 3377.00, 3367.00, 3371.00, 3367.00, 3386.00, 3368.00, 3367.00, 3368.00, 0.00, 0.00, 0.00, 0.00, 3386.00, 3363.00, 0.00, 0.00, 0.00, 0.00, 1, 1, 1, 1, '0000000010000000', '00000000', '00000000', '00000000', '00000000', '00000000', '00000000', '00000000', '00000000',
5, 2023-10-30 13:36:51, 0, 146.10, 53.90, 49.60, 0.00, 138.00, 3368.00, 3368.00, 3369.00, 3374.00, 3377.00, 3367.00, 3371.00, 3367.00, 3386.00, 3368.00, 3368.00, 3369.00, 0.00, 0.00, 0.00, 0.00, 3386.00, 3363.00, 0.00, 0.00, 0.00, 0.00, 1, 1, 1, 1, '0000000010000000', '00000000', '00000000', '00000000', '00000000', '00000000', '00000000', '00000000', '00000000',
7, 2023-10-30 13:36:59, 0, 146.10, 53.90, 49.70, 0.00, 139.00, 3365.00, 3367.00, 3370.00, 3374.00, 3377.00, 3367.00, 3371.00, 3367.00, 3386.00, 3368.00, 3367.00, 3368.00, 0.00, 0.00, 0.00, 0.00, 3386.00, 3363.00, 0.00, 0.00, 0.00, 0.00, 1, 1, 1, 1, '0000000010000000', '00000000', '00000000', '00000000', '00000000', '00000000', '00000000', '00000000', '00000000',
9, 2023-10-30 13:37:07, 0, 146.10, 53.90, 49.90, 0.00, 139.00, 3365.00, 3367.00, 3370.00, 3375.00, 3377.00, 3367.00, 3371.00, 3367.00, 3386.00, 3368.00, 3367.00, 3368.00, 0.00, 0.00, 0.00, 0.00, 3386.00, 3361.00, 0.00, 0.00, 0.00, 0.00, 1, 1, 1, 1, '0000000010000000', '00000000', '00000000', '00000000', '00000000', '00000000', '00000000', '00000000', '00000000',
11, 2023-10-30 13:37:15, 0, 146.20, 53.90, 50.00, 0.00, 140.00, 3365.00, 3367.00, 3370.00, 3374.00, 3377.00, 3367.00, 3372.00, 3367.00, 3386.00, 3368.00, 3368.00, 3369.00, 0.00, 0.00, 0.00, 0.00, 3386.00, 3363.00, 0.00, 0.00, 0.00, 0.00, 1, 1, 1, 1, '0000000010000000', '00000000', '00000000', '00000000', '00000000', '00000000', '00000000', '00000000', '00000000',
13, 2023-10-30 13:37:22, 0, 146.10, 53.90, 50.10, 0.00, 140.00, 3368.00, 3368.00, 3369.00, 3374.00, 3377.00, 3367.00, 3372.00, 3367.00, 3386.00, 3368.00, 3368.00, 3369.00, 0.00, 0.00, 0.00, 0.00, 3386.00, 3363.00, 0.00, 0.00, 0.00, 0.00, 1, 1, 1, 1, '0000000010000000', '00000000', '00000000', '00000000', '00000000', '00000000', '00000000', '00000000', '00000000',
15, 2023-10-30 13:37:30, 0, 146.10, 53.90, 50.20, 0.00, 140.00, 3365.00, 3367.00, 3370.00, 3374.00, 3377.00, 3367.00, 3371.00, 3367.00, 3387.00, 3368.00, 3368.00, 3369.00, 0.00, 0.00, 0.00, 0.00, 3386.00, 3363.00, 0.00, 0.00, 0.00, 0.00, 1, 1, 1, 1, '0000000010000000', '00000000', '00000000', '00000000', '00000000', '00000000', '00000000', '00000000', '00000000',
17, 2023-10-30 13:37:38, 0, 146.10, 53.90, 50.30, 0.00, 140.00, 3365.00, 3367.00, 3370.00, 3374.00, 3377.00, 3367.00, 3371.00, 3367.00, 3386.00, 3368.00, 3368.00, 3369.00, 0.00, 0.00, 0.00, 0.00, 3386.00, 3363.00, 0.00, 0.00, 0.00, 0.00, 1, 1, 1, 1, '0000000010000000', '00000000', '00000000', '00000000', '00000000', '00000000', '00000000', '00000000', '00000000',
19, 2023-10-30 13:37:46, 0, 146.20, 53.90, 50.40, 0.00, 141.00, 3368.00, 3368.00, 3369.00, 3374.00, 3377.00, 3367.00, 3372.00, 3367.00, 3387.00, 3368.00, 3368.00, 3369.00, 0.00, 0.00, 0.00, 0.00, 3386.00, 3363.00, 0.00, 0.00, 0.00, 0.00, 1, 1, 1, 1, '0000000010000000', '00000000', '00000000', '00000000', '00000000', '00000000', '00000000', '00000000', '00000000',
21, 2023-10-30 13:37:53, 0, 146.10, 53.90, 50.50, 0.00, 141.00, 3365.00, 3367.00, 3371.00, 3375.00, 3378.00, 3368.00, 3372.00, 3367.00, 3387.00, 3368.00, 3368.00, 3369.00, 0.00, 0.00, 0.00, 0.00, 3387.00, 3363.00, 0.00, 0.00, 0.00, 0.00, 1, 1, 1, 1, '0000000010000000', '00000000', '00000000', '00000000', '00000000', '00000000', '00000000', '00000000', '00000000',
23, 2023-10-30 13:38:01, 0, 146.10, 53.90, 50.60, 0.00, 141.00, 3365.00, 3367.00, 3371.00, 3375.00, 3377.00, 3368.00, 3371.00, 3367.00, 3387.00, 3368.00, 3368.00, 3369.00, 0.00, 0.00, 0.00, 0.00, 3387.00, 3363.00, 0.00, 0.00, 0.00, 0.00, 1, 1, 1, 1, '0000000010000000', '00000000', '00000000', '00000000', '00000000', '00000000', '00000000', '00000000', '00000000',
25, 2023-10-30 13:38:09, 0, 146.10, 53.90, 50.70, 0.00, 141.00, 3369.00, 3368.00, 3369.00, 3375.00, 3377.00, 3368.00, 3372.00, 3367.00, 3387.00, 3369.00, 3368.00, 3369.00, 0.00, 0.00, 0.00, 0.00, 3387.00, 3363.00, 0.00, 0.00, 0.00, 0.00, 1, 1, 1, 1, '0000000010000000', '00000000', '00000000', '00000000', '00000000', '00000000', '00000000', '00000000', '00000000',
27, 2023-10-30 13:38:17, 0, 146.10, 53.90, 50.80, 0.00, 142.00, 3369.00, 3368.00, 3369.00, 3375.00, 3378.00, 3368.00, 3372.00, 3368.00, 3387.00, 3369.00, 3368.00, 3369.00, 0.00, 0.00, 0.00, 0.00, 3387.00, 3363.00, 0.00, 0.00, 0.00, 0.00, 1, 1, 1, 1, '0000000010000000', '00000000', '00000000', '00000000', '00000000', '00000000', '00000000', '00000000', '00000000',
29, 2023-10-30 13:38:24, 0, 146.10, 53.90, 51.00, 0.00, 142.00, 3365.00, 3368.00, 3371.00, 3375.00, 3377.00, 3368.00, 3372.00, 3368.00, 3387.00, 3369.00, 3368.00, 3369.00, 0.00, 0.00, 0.00, 0.00, 3387.00, 3363.00, 0.00, 0.00, 0.00, 0.00, 1, 1, 1, 1, '0000000010000000', '00000000', '00000000', '00000000', '00000000', '00000000', '00000000', '00000000', '00000000',
31, 2023-10-30 13:38:32, 0, 146.10, 53.90, 51.10, 0.00, 143.00, 3365.00, 3367.00, 3371.00, 3375.00, 3378.00, 3368.00, 3372.00, 3368.00, 3387.00, 3369.00, 3368.00, 3369.00, 0.00, 0.00, 0.00, 0.00, 3387.00, 3364.00, 0.00, 0.00, 0.00, 0.00, 1, 1, 1, 1, '0000000010000000', '00000000', '00000000', '00000000', '00000000', '00000000', '00000000', '00000000', '00000000',
33, 2023-10-30 13:38:40, 0, 146.10, 53.90, 51.20, 0.00, 143.00, 3365.00, 3367.00, 3371.00, 3375.00, 3378.00, 3368.00, 3372.00, 3368.00, 3387.00, 3369.00, 3368.00, 3369.00, 0.00, 0.00, 0.00, 0.00, 3387.00, 3363.00, 0.00, 0.00, 0.00, 0.00, 1, 1, 1, 1, '0000000010000000', '00000000', '00000000', '00000000', '00000000', '00000000', '00000000', '00000000', '00000000',
35, 2023-10-30 13:38:48, 0, 146.10, 53.90, 51.30, 0.00, 143.00, 3369.00, 3369.00, 3370.00, 3375.00, 3378.00, 3368.00, 3372.00, 3368.00, 3387.00, 3369.00, 3369.00, 3370.00, 0.00, 0.00, 0.00, 0.00, 3387.00, 3364.00, 0.00, 0.00, 0.00, 0.00, 1, 1, 1, 1, '0000000010000000', '00000000', '00000000', '00000000', '00000000', '00000000', '00000000', '00000000', '00000000',
37, 2023-10-30 13:38:55, 0, 146.10, 53.90, 51.40, 0.00, 143.00, 3369.00, 3368.00, 3370.00, 3375.00, 3378.00, 3368.00, 3372.00, 3368.00, 3387.00, 3369.00, 3368.00, 3370.00, 0.00, 0.00, 0.00, 0.00, 3387.00, 3364.00, 0.00, 0.00, 0.00, 0.00, 1, 1, 1, 1, '0000000010000000', '00000000', '00000000', '00000000', '00000000', '00000000', '00000000', '00000000', '00000000',
39, 2023-10-30 13:39:03, 0, 146.10, 53.90, 51.50, 0.00, 144.00, 3366.00, 3368.00, 3372.00, 3375.00, 3378.00, 3368.00, 3372.00, 3368.00, 3387.00, 3369.00, 3368.00, 3370.00, 0.00, 0.00, 0.00, 0.00, 3387.00, 3364.00, 0.00, 0.00, 0.00, 0.00, 1, 1, 1, 1, '0000000010000000', '00000000', '00000000', '00000000', '00000000', '00000000', '00000000', '00000000', '00000000',
41, 2023-10-30 13:39:11, 0, 146.10, 53.90, 51.60, 0.00, 144.00, 3366.00, 3368.00, 3371.00, 3375.00, 3378.00, 3368.00, 3372.00, 3368.00, 3387.00, 3369.00, 3369.00, 3369.00, 0.00, 0.00, 0.00, 0.00, 3387.00, 3364.00, 0.00, 0.00, 0.00, 0.00, 1, 1, 1, 1, '0000000010000000', '00000000', '00000000', '00000000', '00000000', '00000000', '00000000', '00000000', '00000000',
43, 2023-10-30 13:39:19, 0, 146.10, 53.90, 51.70, 0.00, 144.00, 3369.00, 3369.00, 3370.00, 3375.00, 3378.00, 3368.00, 3372.00, 3368.00, 3387.00, 3369.00, 3369.00, 3370.00, 0.00, 0.00, 0.00, 0.00, 3387.00, 3364.00, 0.00, 0.00, 0.00, 0.00, 1, 1, 1, 1, '0000000010000000', '00000000', '00000000', '00000000', '00000000', '00000000', '00000000', '00000000', '00000000',
45, 2023-10-30 13:39:26, 0, 146.10, 53.90, 51.80, 0.00, 145.00, 3366.00, 3368.00, 3371.00, 3375.00, 3378.00, 3368.00, 3372.00, 3368.00, 3387.00, 3369.00, 3369.00, 3370.00, 0.00, 0.00, 0.00, 0.00, 3387.00, 3364.00, 0.00, 0.00, 0.00, 0.00, 1, 1, 1, 1, '0000000010000000', '00000000', '00000000', '00000000', '00000000', '00000000', '00000000', '00000000', '00000000',
47, 2023-10-30 13:39:34, 0, 146.10, 53.90, 52.00, 0.00, 145.00, 3369.00, 3369.00, 3370.00, 3375.00, 3378.00, 3368.00, 3372.00, 3368.00, 3387.00, 3369.00, 3369.00, 3370.00, 0.00, 0.00, 0.00, 0.00, 3387.00, 3364.00, 0.00, 0.00, 0.00, 0.00, 1, 1, 1, 1, '0000000010000000', '00000000', '00000000', '00000000', '00000000', '00000000', '00000000', '00000000', '00000000',
49, 2023-10-30 13:39:42, 0, 146.10, 53.90, 52.10, 0.00, 145.00, 3366.00, 3368.00, 3372.00, 3375.00, 3378.00, 3368.00, 3372.00, 3368.00, 3387.00, 3369.00, 3368.00, 3370.00, 0.00, 0.00, 0.00, 0.00, 3387.00, 3364.00, 0.00, 0.00, 0.00, 0.00, 1, 1, 1, 1, '0000000010000000', '00000000', '00000000', '00000000', '00000000', '00000000', '00000000', '00000000', '00000000',
51, 2023-10-30 13:39:50, 0, 146.10, 53.90, 52.20, 0.00, 146.00, 3366.00, 3368.00, 3372.00, 3375.00, 3378.00, 3369.00, 3373.00, 3368.00, 3387.00, 3369.00, 3369.00, 3370.00, 0.00, 0.00, 0.00, 0.00, 3387.00, 3364.00, 0.00, 0.00, 0.00, 0.00, 1, 1, 1, 1, '0000000010000000', '00000000', '00000000', '00000000', '00000000', '00000000', '00000000', '00000000', '00000000',
53, 2023-10-30 13:39:57, 0, 146.10, 53.90, 52.30, 0.00, 146.00, 3369.00, 3369.00, 3370.00, 3375.00, 3378.00, 3368.00, 3373.00, 3368.00, 3387.00, 3369.00, 3369.00, 3370.00, 0.00, 0.00, 0.00, 0.00, 3387.00, 3364.00, 0.00, 0.00, 0.00, 0.00, 1, 1, 1, 1, '0000000010000000', '00000000', '00000000', '00000000', '00000000', '00000000', '00000000', '00000000', '00000000',
54, 2023-10-30 13:40:01, 0, 146.10, 53.90, 52.30, 0.00, 146.00, 3369.00, 3368.00, 3370.00, 3376.00, 3378.00, 3369.00, 3373.00, 3369.00, 3387.00, 3369.00, 3368.00, 3370.00, 0.00, 0.00, 0.00, 0.00, 3387.00, 3364.00, 0.00, 0.00, 0.00, 0.00, 1, 1, 1, 1, '0000000010000000', '00000000', '00000000', '00000