Folder: EPDataLog/Daly

Note: README.md
# EPDataLog

## Description

EPDataLog is a program designed to facilitate data logging from a Microgreen EnergyPak Battery.
- **Supported BMS:** Mewyeah, Heyo Daly
- **Supported Operating Systems:** Windows, MacOS

## Installation

1. On Windows, install the [CH340 Driver](https://www.wch-ic.com/downloads/CH341SER_ZIP.html) (Ctrl+Click to open in a new tab).
2. Navigate to the [release page](https://github.com/MicrogreenSolarCorp/EPDataLog/releases) (Ctrl+Click to open in a new tab).
3. **Important:** Check the BMS version of the EnergyPak (either Mewyeah or Daly). Download the corresponding zip file for the operating system and BMS version.
4. Unzip the downloaded file.

## Usage

### Windows

#### Quickstart
1. Ensure the EnergyPak is ON and connected to the computer via the RS232-USB cable. If using a 12kWh EnergyPak, ensure the display is turned OFF.
2. Open the unzipped folder and double-click on the `run.bat` file to start data logging with default settings.

![windowsRun](https://github.com/MicrogreenSolarCorp/EPDataLog/blob/main/assetsForReadme/windowsRun.png)
![windowsRunSuccess](https://github.com/MicrogreenSolarCorp/EPDataLog/blob/main/assetsForReadme/windowsRunSuccess.png)

#### Custom Configuration
To modify the read interval or specify a COM port:
1. Right-click on `run.bat` and select "Open with" → "Notepad", or open Notepad and navigate to File → Open to select `run.bat`.
2. Locate the line with the command `EPDataLogMewyeah.exe -t [Interval Time(ms)] -c [COM Port Number]`.
3. Replace `[Interval Time(ms)]` and `[COM Port Number]` with desired values.
4. Save the modifications to the `run.bat` file (Ctrl + S).
5. Double-click the updated `run.bat` file to initiate the data logging process.

### MacOS

#### Quickstart
1. Ensure the EnergyPak is ON and connected to the computer via the RS232-USB cable. If using a 12kWh EnergyPak, ensure the display is turned OFF.
2. Open the folder and double-click on the program file to start data logging with default settings.

![macosRun](https://github.com/MicrogreenSolarCorp/EPDataLog/blob/main/assetsForReadme/macosRun.png)
![macosRunSuccess](https://github.com/MicrogreenSolarCorp/EPDataLog/blob/main/assetsForReadme/macosRunSuccess.png)

### Custom Configuration Instructions

#### Parameters
- `-t [Interval Time(ms)]`: Specifies the time interval in milliseconds between two consecutive data logs. The default value is 5000 ms.
- `-c [COM Port Number]`: Specifies the COM port number for device communication. If not specified, the script will auto-detect the correct COM port.

#### Custom Configuration Example
To perform data logging every 5000 ms through COM3, modify the batch file to include:
```bash
EPDataLogMewyeahWindows.exe -t 5000 -c 3
```

## Sample Output
Refer to [SampleLog.csv](https://github.com/MicrogreenSolarCorp/EPDataLog/blob/main/SampleLog.csv) (Ctrl+Click to open in a new tab) for an example of the output CSV file.

File: SampleLog.csv
Line #, Timestamp, Battery ID, Current (A), Voltage (V), State Of Charge (%), Total Capacity, Remaining Capacity (mAH),Cell Voltage 1 (mV),Cell Voltage 2 (mV),Cell Voltage 3 (mV),Cell Voltage 4 (mV),Cell Voltage 5 (mV),Cell Voltage 6 (mV),Cell Voltage 7 (mV),Cell Voltage 8 (mV),Cell Voltage 9 (mV),Cell Voltage 10 (mV),Cell Voltage 11 (mV),Cell Voltage 12 (mV),Cell Voltage 13 (mV),Cell Voltage 14 (mV),Cell Voltage 15 (mV),Cell Voltage 16 (mV),Highest Cell Voltage (mV), Lowest Cell Voltage (mV),Temperature 1 (C),Temperature 2 (C),Temperature 3 (C),Temperature 4 (C),Charging (1) Discharging (2) Status, Charging MOS Status, Discharging MOS Status, Balancing Status, Cell Balancing Status,Alarm 1,Alarm 2,Alarm 3,Alarm 4,Alarm 5,Alarm 6,Alarm 7,Alarm 8,
1, 2023-09-25 16:15:34, 0, 0.00, 14.50, 100.00, 0.00, 302000.00, 3644.00, 3643.00, 3636.00, 3627.00,  ,  ,  ,  ,  ,  ,  ,  ,  ,  ,  ,  , 3644.00, 3627.00, 42.00, 44.00,  ,  , 0, 0, 1, 0, '0000', '01000100', '00000000', '00001000', '00000000', '00000000', '00000000', '00000000', '00000000',
31, 2023-09-25 16:17:05, 0, 0.00, 14.50, 100.00, 0.00, 302000.00, 3643.00, 3643.00, 3639.00, 3627.00,  ,  ,  ,  ,  ,  ,  ,  ,  ,  ,  ,  , 3643.00, 3627.00, 42.00, 44.00,  ,  , 0, 0, 1, 0, '0000', '01000100', '00000000', '00001000', '00000000', '00000000', '00000000', '00000000', '00000000',
61, 2023-09-25 16:18:34, 0, 0.00, 14.50, 100.00, 0.00, 302000.00, 3643.00, 3643.00, 3637.00, 3627.00,  ,  ,  ,  ,  ,  ,  ,  ,  ,  ,  ,  , 3643.00, 3627.00, 42.00, 44.00,  ,  , 0, 0, 1, 0, '0000', '01000100', '00000000', '00001000', '00000000', '00000000', '00000000', '00000000', '00000000',
91, 2023-09-25 16:20:04, 0, 0.00, 14.50, 100.00, 0.00, 302000.00, 3644.00, 3643.00, 3635.00, 3627.00,  ,  ,  ,  ,  ,  ,  ,  ,  ,  ,  ,  , 3645.00, 3627.00, 44.00, 44.00,  ,  , 0, 0, 1, 0, '0000', '01000100', '00000000', '00001000', '00000000', '00000000', '00000000', '00000000', '00000000',
121, 2023-09-25 16:21:34, 0, 0.00, 14.50, 100.00, 0.00, 302000.00, 3643.00, 3642.00, 3634.00, 3627.00,  ,  ,  ,  ,  ,  ,  ,  ,  ,  ,  ,  , 3645.00, 3627.00, 44.00, 46.00,  ,  , 0, 0, 1, 0, '0000', '01000100', '00000000', '00001000', '00000000', '00000000', '00000000', '00000000', '00000000',
151, 2023-09-25 16:23:09, 0, 0.00, 14.50, 100.00, 0.00, 302000.00, 3645.00, 3643.00, 3636.00, 3627.00,  ,  ,  ,  ,  ,  ,  ,  ,  ,  ,  ,  , 3644.00, 3627.00, 44.00, 46.00,  ,  , 0, 0, 1, 0, '0000', '01000100', '00000000', '00001000', '00000000', '00000000', '00000000', '00000000', '00000000',
181, 2023-09-25 16:24:38, 0, 0.00, 14.50, 100.00, 0.00, 302000.00, 3644.00, 3643.00, 3637.00, 3626.00,  ,  ,  ,  ,  ,  ,  ,  ,  ,  ,  ,  , 3644.00, 3627.00, 44.00, 46.00,  ,  , 0, 0, 1, 0, '0000', '01000100', '00000000', '00001000', '00000000', '00000000', '00000000', '00000000', '00000000',
211, 2023-09-25 16:26:09, 0, 0.00, 14.50, 100.00, 0.00, 302000.00, 3644.00, 3642.00, 3636.00, 3627.00,  ,  ,  ,  ,  ,  ,  ,  ,  ,  ,  ,  , 3644.00, 3627.00, 44.00, 46.00,  ,  , 0, 0, 1, 0, '0000', '01000100', '00000000', '00001000', '00000000', '00000000', '00000000', '00000000', '00000000',
241, 2023-09-25 16:27:39, 0, 0.00, 14.50, 100.00, 0.00, 302000.00, 3644.00, 3643.00, 3636.00, 3626.00,  ,  ,  ,  ,  ,  ,  ,  ,  ,  ,  ,  , 3644.00, 3627.00, 44.00, 46.00,  ,  , 0, 0, 1, 0, '0000', '01000100', '00000000', '00001000', '00000000', '00000000', '00000000', '00000000', '00000000',
271, 2023-09-25 16:29:09, 0, 0.00, 14.50, 100.00, 0.00, 302000.00, 3645.00, 3643.00, 3637.00, 3627.00,  ,  ,  ,  ,  ,  ,  ,  ,  ,  ,  ,  , 3645.00, 3627.00, 44.00, 46.00,  ,  , 0, 0, 1, 0, '0000', '01000100', '00000000', '00001000', '00000000', '00000000', '00000000', '00000000', '00000000',
301, 2023-09-25 16:30:39, 0, 0.00, 14.50, 100.00, 0.00, 302000.00, 3643.00, 3642.00, 3635.00, 3627.00,  ,  ,  ,  ,  ,  ,  ,  ,  ,  ,  ,  , 3645.00, 3627.00, 44.00, 46.00,  ,  , 0, 0, 1, 0, '0000', '01000100', '00000000', '00001000', '00000000', '00000000', '00000000', '00000000', '00000000',
331, 2023-09-25 16:32:09, 0, 0.00, 14.50, 100.00, 0.00, 302000.00, 3643.00, 3643.00, 3638.00, 3627.00,  ,  ,  ,  ,  ,  ,  ,  ,  ,  ,  ,  , 3643.00, 3627.00, 44.00, 46.00,  ,  , 0, 0, 1, 0, '0000', '01000100', '00000000', '00001000', '00000000', '00000000', '00000000', '00000000', '00000000',
361, 2023-09-25 16:33:39, 0, 0.00, 14.50, 100.00, 0.00, 302000.00, 3642.00, 3642.00, 3634.00, 3626.00,  ,  ,  ,  ,  ,  ,  ,  ,  ,  ,  ,  , 3643.00, 3627.00, 42.00, 44.00,  ,  , 0, 0, 1, 0, '0000', '01000100', '00000000', '00001000', '00000000', '00000000', '00000000', '00000000', '00000000',
391, 2023-09-25 16:35:09, 0, 0.00, 14.50, 100.00, 0.00, 302000.00, 3645.00, 3643.00, 3638.00, 3627.00,  ,  ,  ,  ,  ,  ,  ,  ,  ,  ,  ,  , 3644.00, 3627.00, 42.00, 44.00,  ,  , 0, 0, 1, 0, '0000', '01000100', '00000000', '00001000', '00000000', '00000000', '00000000', '00000000', '00000000',
421, 2023-09-25 16:36:38, 0, 0.00, 14.50, 100.00, 0.00, 302000.00, 3645.00, 3643.00, 3638.00, 3627.00,  ,  ,  ,  ,  ,  ,  ,  ,  ,  ,  ,  , 3644.00, 3627.00, 42.00, 44.00,  ,  , 0, 0, 1, 0, '0000', '01000100', '00000000', '00001000', '00000000', '00000000', '00000000', '00000000', '00000000',
451, 2023-09-25 16:38:08, 0, 0.00, 14.50, 100.00, 0.00, 302000.00, 3645.00, 3643.00, 3637.00, 3627.00,  ,  ,  ,  ,  ,  ,  ,  ,  ,  ,  ,  , 3645.00, 3628.00, 42.00, 45.00,  ,  , 0, 0, 1, 0, '0000', '01000100', '00000000', '00001000', '00000000', '00000000', '00000000', '00000000', '00000000',
481, 2023-09-25 16:39:38, 0, 0.00, 14.50, 100.00, 0.00, 302000.00, 3644.00, 3643.00, 3638.00, 3628.00,  ,  ,  ,  ,  ,  ,  ,  ,  ,  ,  ,  , 3645.00, 3628.00, 42.00, 44.00,  ,  , 0, 0, 1, 0, '0000', '01000100', '00000000', '00001000', '00000000', '00000000', '00000000', '00000000', '00000000',
511, 2023-09-25 16:41:08, 0, 0.00, 14.50, 100.00, 0.00, 302000.00, 3643.00, 3642.00, 3636.00, 3627.00,  ,  ,  ,  ,  ,  ,  ,  ,  ,  ,  ,  , 3644.00, 3627.00, 42.00, 44.00,  ,  , 0, 0, 1, 0, '0000', '01000100', '00000000', '00001000', '00000000', '00000000', '00000000', '00000000', '00000000',
541, 2023-09-25 16:42:38, 0, 0.00, 14.50, 100.00, 0.00, 302000.00, 3644.00, 3643.00, 3637.00, 3627.00,  ,  ,  ,  ,  ,  ,  ,  ,  ,  ,  ,  , 3644.00, 3627.00, 42.00, 44.00,  ,  , 0, 0, 1, 0, '0000', '01000100', '00000000', '00001000', '00000000', '00000000', '00000000', '00000000', '00000000',
571, 2023-09-25 16:44:08, 0, 0.00, 14.50, 100.00, 0.00, 302000.00, 3645.00, 3643.00, 3638.00, 3629.00,  ,  ,  ,  ,  ,  ,  ,  ,  ,  ,  ,  , 3644.00, 3629.00, 42.00, 45.00,  ,  , 0, 0, 1, 0, '0000', '01000100', '00000000', '00001000', '00000000', '00000000', '00000000', '00000000', '00000000',
601, 2023-09-25 16:45:38, 0, 0.00, 14.50, 100.00, 0.00, 302000.00, 3645.00, 3643.00, 3639.00, 3629.00,  ,  ,  ,  ,  ,  ,  ,  ,  ,  ,  ,  , 3645.00, 3629.00, 42.00, 44.00,  ,  , 0, 0, 1, 0, '0000', '01000100', '00000000', '00001000', '00000000', '00000000', '00000000', '00000000', '00000000',
631, 2023-09-25 16:47:07, 0, 0.00, 14.50, 100.00, 0.00, 302000.00, 3645.00, 3643.00, 3636.00, 3628.00,  ,  ,  ,  ,  ,  ,  ,  ,  ,  ,  ,  , 3645.00, 3629.00, 42.00, 45.00,  ,  , 0, 0, 1, 0, '0000', '01000100', '00000000', '00001000', '00000000', '00000000', '00000000', '00000000', '00000000',
661, 2023-09-25 16:48:38, 0, 0.00, 14.50, 100.00, 0.00, 302000.00, 3645.00, 3643.00, 3636.00, 3626.00,  ,  ,  ,  ,  ,  ,  ,  ,  ,  ,  ,  , 3645.00, 3627.00, 42.00, 44.00,  ,  , 0, 0, 1, 0, '0000', '01000100', '00000000', '00001000', '00000000', '00000000', '00000000', '00000000', '00000000',
691, 2023-09-25 16:50:08, 0, 0.00, 14.50, 100.00, 0.00, 302000.00, 3644.00, 3643.00, 3639.00, 3628.00,  ,  ,  ,  ,  ,  ,  ,  ,  ,  ,  ,  , 3645.00, 3628.00, 42.00, 44.00,  ,  , 0, 0, 1, 0, '0000', '01000100', '00000000', '00001000', '00000000', '00000000', '00000000', '00000000', '00000000',
721, 2023-09-25 16:51:38, 0, 0.00, 14.50, 100.00, 0.00, 302000.00, 3644.00, 3642.00, 3638.00, 3629.00,  ,  ,  ,  ,  ,  ,  ,  ,  ,  ,  ,  , 3645.00, 3628.00, 42.00, 44.00,  ,  , 0, 0, 1, 0, '0000', '01000100', '00000000', '00001000', '00000000', '00000000', '00000000', '00000000', '00000000',
751, 2023-09-25 16:53:07, 0, 0.00, 14.50, 100.00, 0.00, 302000.00, 3644.00, 3643.00, 3636.00, 3627.00,  ,  ,  ,  ,  ,  ,  ,  ,  ,  ,  ,  , 3644.00, 3627.00, 42.00, 44.00,  ,  , 0, 0, 1, 0, '0000', '01000100', '00000000', '00001000', '00000000', '00000000', '00000000', '00000000', '00000000',
781, 2023-09-25 16:54:37, 0, 0.00, 14.50, 100.00, 0.00, 302000.00, 3645.00, 3643.00, 3636.00, 3626.00,  ,  ,  ,  ,  ,  ,  ,  ,  ,  ,  ,  , 3645.00, 3627.00, 44.00, 46.00,  ,  , 0, 0, 1, 0, '0000', '01000100', '00000000', '00001000', '00000000', '00000000', '00000000', '00000000', '00000000',
811, 2023-09-25 16:56:08, 0, 0.00, 14.50, 100.00, 0.00, 302000.00, 3645.00, 3643.00, 3634.00, 3626.00,  ,  ,  ,  ,  ,  ,  ,  ,  ,  ,  ,  , 3643.00, 3627.00, 44.00, 46.00,  ,  , 0, 0, 1, 0, '0000', '01000100', '00000000', '00001000', '00000000', '00000000', '00000000', '00000000', '00000000',
841, 2023-09-25 16:57:38, 0, 0.00, 14.50, 100.00, 0.00, 302000.00, 3644.00, 3643.00, 3635.00, 3626.00,  ,  ,  ,  ,  ,  ,  ,  ,  ,  ,  ,  , 3645.00, 3627.00, 44.00, 46.00,  ,  , 0, 0, 1, 0, '0000', '01000100', '00000000', '00001000', '00000000', '00000000', '00000000', '00000000', '00000000',
871, 2023-09-25 16:59:08, 0, 0.00, 14.50, 100.00, 0.00, 302000.00, 3645.00, 3643.00, 3636.00, 3627.00,  ,  ,  ,  ,  ,  ,  ,  ,  ,  ,  ,  , 3645.00, 3627.00, 44.00, 46.00,  ,  , 0, 0, 1, 0, '0000', '01000100', '00000000', '00001000', '00000000', '00000000', '00000000', '00000000', '00000000',
901, 2023-09-25 17:00:39, 0, 0.00, 14.50, 100.00, 0.00, 302000.00, 3643.00, 3643.00, 3639.00, 3627.00,  ,  ,  ,  ,  ,  ,  ,  ,  ,  ,  ,  , 3643.00, 3627.00, 44.00, 44.00,  ,  , 0, 0, 1, 0, '0000', '01000100', '00000000', '00001000', '00000000', '00000000', '00000000', '00000000', '00000000',
931, 2023-09-25 17:02:10, 0, 0.00, 14.50, 100.00, 0.00, 302000.00, 3643.00, 3643.00, 3639.00, 3628.00,  ,  ,  ,  ,  ,  ,  ,  ,  ,  ,  ,  , 3643.00, 3629.00, 42.00, 42.00,  ,  , 0, 0, 1, 0, '0000', '01000100', '00000000', '00001000', '00000000', '00000000', '00000000', '00000000', '00000000',
961, 2023-09-25 17:03:42, 0, 0.00, 14.50, 100.00, 0.00, 302000.00, 3643.00, 3643.00, 3638.00, 3627.00,  ,  ,  ,  ,  ,  ,  ,  ,  ,  ,  ,  , 3643.00, 3627.00, 42.00, 42.00,  ,  , 0, 0, 1, 0, '0000', '01000100', '00000000', '00001000', '00000000', '00000000', '00000000', '00000000', '00000000',
991, 2023-09-25 17:05:15, 0, 0.00, 14.50, 100.00, 0.00, 302000.00, 3643.00, 3643.00, 3638.00, 3627.00,  ,  ,  ,  ,  ,  ,  ,  ,  ,  ,  ,  , 3643.00, 3627.00, 40.00, 40.00,  ,  , 0, 0, 1, 0, '0000', '01000100', '00000000', '00001000', '00000000', '00000000', '00000000', '00000000', '00000000',
1006, 2023-09-25 17:06:01, 0, 0.00, 14.50, 100.00, 0.00, 302000.00, 3643.00, 3643.00, 3636.00, 3627.00,  ,  ,  ,  ,  ,  ,  ,  ,  ,  ,  ,  , 3643.00, 3627.00, 40.00, 40.00,  ,  , 0, 0, 1, 0, '0000', '01000100', '00000000', '00001000', '00000000', '00000000', '00000000', '00000000', '00000000',